File: JupyterLongueurDonde/Transmission Plastiques/TransmissionsPlastiques.csv
Baseline 100%T,,Baseline 0%T,,sample1,,Plexyglass,,Petri,,rouge,,jaune,,bleu,,lamelle_verre,,
Wavelength (nm),%T,Wavelength (nm),%T,Wavelength (nm),%T,Wavelength (nm),%T,Wavelength (nm),%T,Wavelength (nm),%T,Wavelength (nm),%T,Wavelength (nm),%T,Wavelength (nm),%T,
2600,436780,2600,0.00131438,2600,0.00156602,2600,0.00403995,2600,0.00781518,2600,122.824,2600,111.117,2600,110.894,2600,0.0194969,
2594,541775,2594,0.00410262,2594,0.00121764,2594,0.00319402,2594,0.00643336,2594,93.458,2594,81.6887,2594,74.3845,2594,0.0164482,
2588,451370.25,2588,0.00640059,2588,0.00134621,2588,0.00365701,2588,0.0077152,2588,99.384,2588,102.193,2588,95.5667,2588,0.0198678,
2582,490162,2582,0.00532413,2582,0.00111117,2582,0.00316767,2582,0.00708704,2582,102.672,2582,93.6115,2582,107.288,2582,0.0177181,
2576,475530.875,2576,0.00506337,2576,0.00106392,2576,0.0031387,2576,0.00729392,2576,97.6671,2576,109.126,2576,96.2409,2576,0.0191718,
2570,439008,2570,0.00444701,2570,0.00108975,2570,0.00330211,2570,0.00769112,2570,122.577,2570,105.219,2570,103.84,2570,0.0195325,
2564,511969,2564,0.00458327,2564,0.000887384,2564,0.00274564,2564,0.00638352,2564,99.2591,2564,99.7812,2564,92.6485,2564,0.0172931,
2558,480328.625,2558,0.00332488,2558,0.000836315,2558,0.00272702,2558,0.00673825,2558,121.486,2558,98.903,2558,86.548,2558,0.0183678,
2552,508681,2552,0.00388061,2552,0.000638953,2552,0.00226974,2552,0.00618558,2552,96.7414,2552,92.1198,2552,98.7192,2552,0.0168681,
2546,422721,2546,0.00472242,2546,0.000466474,2546,0.00200834,2546,0.00710244,2546,129.288,2546,101.97,2546,117.458,2546,0.0217276,
2540,513009,2540,0.00487302,2540,0.00022273,2540,0.00118402,2540,0.00562513,2540,99.5624,2540,0.0157443,2540,89.6866,2540,0.0164888,
2534,521448,2534,0.001415,2534,0.000221185,2534,0.00117368,2534,0.00571692,2534,106.119,2534,0.014865,2534,0.0146879,2534,0.0173953,
2528,508608,2528,0.00365903,2528,0.000354489,2528,0.00160428,2528,0.00590411,2528,90.1949,2528,0.0151315,2528,0.0156311,2528,0.0171909,
2522,439640,2522,0.00133367,2522,0.000478258,2522,0.00207783,2522,0.00651654,2522,118.939,2522,0.0182329,2522,0.0173134,2522,0.0198154,
2516,516542,2516,0.00174392,2516,0.000285067,2516,0.00143567,2516,0.00518745,2516,0.043883,2516,0.0148955,2516,0.0147338,2516,0.0176497,
2510,519088,2510,0.0036565,2510,0.000166661,2510,0.00103581,2510,0.00517338,2510,0.0146186,2510,0.0145862,2510,0.0150954,2510,0.0162707,
2504,468902,2504,0.003757,2504,0.000153329,2504,0.00102105,2504,0.00489482,2504,0.0161002,2504,0.0167619,2504,0.015862,2504,0.0196674,
2498,444603,2498,0.00352135,2498,0.000173344,2498,0.00112793,2498,0.00405526,2498,0.0168264,2498,0.0169454,2498,0.0168232,2498,0.0191734,
2492,545298.75,2492,0.00185311,2492,0.000138115,2492,0.000914893,2492,0.00298669,2492,0.013556,2492,0.0135747,2492,0.0140022,2492,0.0165027,
2486,615799.5,2486,0.00223191,2486,0.000109228,2486,0.00076353,2486,0.00103598,2486,0.0119898,2486,0.012505,2486,0.0117843,2486,0.0143633,
2480,524324.5,2480,0.00440265,2480,0.000114406,2480,0.000835538,2480,0.000315427,2480,0.0138826,2480,0.0141182,2480,0.0141624,2480,0.0164921,
2474,542875,2474,0.00370458,2474,9.52058e-05,2474,0.000722915,2474,0.000195205,2474,0.0134026,2474,0.0134759,2474,0.0138232,2474,0.0168677,
2468,506064,2468,0.00368194,2468,8.47305e-05,2468,0.000680832,2468,0.000227288,2468,0.014333,2468,0.0150879,2468,0.0141821,2468,0.0166624,
2462,145.195,2462,0.00317854,2462,0.241791,2462,2.07493,2462,1.0613,2462,49.5139,2462,50.3523,2462,51.1612,2462,63.7319,
2456,96.7098,2456,0.00215756,2456,0.271558,2456,2.53624,2456,4.32466,2456,73.9268,2456,74.7458,2456,75.508,2456,87.5067,
2450,96.7289,2450,0.0029883,2450,0.163912,2450,1.79081,2450,9.62595,2450,73.4342,2450,77.5486,2450,73.0661,2450,94.3181,
2444,96.7194,2444,0.00083105,2444,0.0967027,2444,1.18373,2444,14.9647,2444,74.3998,2444,74.9717,2444,77.1591,2444,89.6573,
2438,96.7335,2438,0.00450699,2438,0.0694162,2438,1.01331,2438,18.3107,2438,74.0251,2438,75.7336,2438,74.8935,2438,91.5817,
2432,96.7214,2432,0.000919588,2432,0.0923813,2432,1.18938,2432,20.2471,2432,73.895,2432,77.8418,2432,74.1477,2432,92.4916,
2426,96.7215,2426,0.000235369,2426,0.0920949,2426,1.20449,2426,22.8052,2426,73.8539,2426,74.2706,2426,77.0284,2426,88.9892,
2420,96.723,2420,0.00294604,2420,0.059508,2420,0.919387,2420,25.8893,2420,72.9176,2420,75.4833,2420,72.8699,2420,94.8314,
2414,96.7225,2414,0.00437728,2414,0.0216221,2414,0.543004,2414,28.8483,2414,71.1388,2414,74.7594,2414,72.8242,2414,87.3494,
2408,96.7102,2408,0.00124227,2408,0.0141632,2408,0.370745,2408,29.5265,2408,68.933,2408,70.0543,2408,71.81,2408,95.9635,
2402,96.7111,2402,0.000783093,2402,0.0169107,2402,0.41125,2402,29.4308,2402,68.0676,2402,71.6523,2402,68.0891,2402,86.9696,
2396,96.7103,2396,0.00127787,2396,0.0217352,2396,0.491439,2396,27.4399,2396,67.5663,2396,71.0462,2396,70.815,2396,95.8449,
2390,96.7162,2390,0.00291968,2390,0.0199265,2390,0.493725,2390,24.9113,2390,68.3182,2390,69.4026,2390,69.7857,2390,87.6056,
2384,96.7267,2384,0.00302463,2384,0.0117851,2384,0.400447,2384,22.4931,2384,67.3862,2384,71.8778,2384,68.5723,2384,94.8229,
2378,96.7313,2378,0.00162487,2378,0.0092551,2378,0.308833,2378,18.3191,2378,64.937,2378,67.7014,2378,68.5223,2378,88.7996,
2372,96.7389,2372,0.00641432,2372,0.00560252,2372,0.343887,2372,18.0267,2372,63.7641,2372,66.0554,2372,64.5669,2372,93.4759,
2366,96.7465,2366,0.00172372,2366,0.0130197,2366,0.556789,2366,17.9746,2366,64.3745,2366,69.214,2366,67.1716,2366,90.2163,
2360,96.7235,2360,0.000797727,2360,0.0429623,2360,0.896096,2360,16.9409,2360,65.4261,2360,67.2949,2360,68.0523,2360,92.0979,
2354,96.7178,2354,0.00350056,2354,0.0776302,2354,1.24382,2354,14.7674,2354,66.1842,2354,69.9891,2354,67.5691,2354,91.5496,
2348,96.7536,2348,0.00421521,2348,0.106593,2348,1.44854,2348,16.1844,2348,68.5224,2348,72.5817,2348,72.2272,2348,90.8455,
2342,96.7248,2342,0.00288055,2342,0.12206,2342,1.54259,2342,22.3758,2342,68.2497,2342,69.6944,2342,69.3792,2342,92.6263,
2336,96.7393,2336,0.00256466,2336,0.161955,2336,1.81176,2336,29.4901,2336,67.1528,2336,70.9791,2336,69.0055,2336,89.9428,
2330,96.7415,2330,-0.00102793,2330,0.245461,2330,2.31808,2330,36.4664,2330,66.1156,2330,68.8885,2330,68.9334,2330,93.3529,
2324,96.7136,2324,0.00259272,2324,0.300914,2324,2.63297,2324,39.8682,2324,66.0467,2324,68.2306,2324,66.7542,2324,89.4446,
2318,96.709,2318,0.00432245,2318,0.236616,2318,2.26183,2318,36.6997,2318,62.8394,2318,68.0968,2318,66.9032,2318,93.6866,
2312,96.6787,2312,0.00348742,2312,0.124407,2312,1.43028,2312,27.9427,2312,58.7919,2312,61.4406,2312,60.6775,2312,89.239,
2306,96.6745,2306,0.00361201,2306,0.0420917,2306,0.710453,2306,26.0567,2306,59.7384,2306,62.9094,2306,61.9439,2306,93.7442,
2300,96.6808,2300,0.00322931,2300,0.00985366,2300,0.302581,2300,29.3728,2300,62.1846,2300,65.8524,2300,65.0287,2300,89.3009,
2294,96.6836,2294,0.00200692,2294,0.00259413,2294,0.14343,2294,34.0264,2294,65.1694,2294,66.6723,2294,65.6894,2294,93.4962,
2288,96.6578,2288,0.00222554,2288,-0.00205323,2288,0.0756608,2288,41.1131,2288,69.608,2288,73.8551,2288,72.8478,2288,89.6401,
2282,96.6178,2282,0.00260182,2282,-0.00311621,2282,0.034412,2282,47.3278,2282,75.6884,2282,75.8557,2282,74.9607,2282,93.012,
2276,96.5896,2276,0.00282911,2276,-0.00070648,2276,0.0269387,2276,53.0535,2276,78.9885,2276,81.0487,2276,80.8802,2276,90.1753,
2270,96.5795,2270,0.00352993,2270,-0.00276265,2270,0.0445825,2270,58.1378,2270,82.0537,2270,83.1256,2270,81.9091,2270,92.3593,
2264,96.576,2264,0.00038781,2264,0.000560195,2264,0.019477,2264,61.4191,2264,82.6206,2264,82.4404,2264,82.7143,2264,91.0369,
2258,96.5799,2258,0.00232841,2258,-0.000854947,2258,-0.00261156,2258,63.3595,2258,84.2944,2258,86.5429,2258,85.6226,2258,91.3688,
2252,96.6046,2252,0.00338633,2252,-0.000699767,2252,-0.00084086,2252,62.775,2252,84.2851,2252,83.6615,2252,83.1966,2252,91.9681,
2246,96.6384,2246,0.00221119,2246,-0.00271994,2246,0.000179191,2246,65.9376,2246,86.4025,2246,87.3786,2246,87.9014,2246,90.3425,
2240,96.657,2240,0.00173322,2240,-0.00192155,2240,0.0314135,2240,66.9102,2240,86.1477,2240,86.8284,2240,84.7321,2240,93.1346,
2234,96.6628,2234,0.00140447,2234,0.000477239,2234,0.18782,2234,65.7335,2234,87.731,2234,86.3249,2234,88.1709,2234,89.0994,
2228,96.6679,2228,-0.000365752,2228,0.0526755,2228,0.879574,2228,64.1286,2228,87.0828,2228,89.4496,2228,86.7141,2228,94.3086,
2222,96.6742,2222,-0.00121835,2222,0.431837,2222,3.30684,2222,60.1135,2222,88.8376,2222,85.8074,2222,87.2639,2222,88.0273,
2216,96.6949,2216,0.00185439,2216,1.98923,2216,8.54044,2216,59.6883,2216,87.8788,2216,90.0885,2216,88.7111,2216,95.2261,
2210,96.6875,2210,0.00345391,2210,5.14389,2210,15.4616,2210,59.9762,2210,89.3877,2210,86.9115,2210,86.2833,2210,87.5207,
2204,96.711,2204,0.00135719,2204,9.09068,2204,22.0661,2204,58.462,2204,88.2197,2204,88.8748,2204,89.9255,2204,95.2529,
2198,96.7104,2198,0.00279189,2198,12.8492,2198,27.3804,2198,53.9798,2198,89.6055,2198,88.9102,2198,85.895,2198,88.1433,
2192,96.7061,2192,0.00280137,2192,15.6881,2192,31.0149,2192,41.5945,2192,88.2537,2192,87.1335,2192,90.1223,2192,93.9435,
2186,96.7039,2186,0.000955038,2186,17.8434,2186,33.6282,2186,28.9511,2186,89.3519,2186,90.1931,2186,86.0486,2186,90.1402,
2180,96.6892,2180,0.000135681,2180,20.7111,2180,36.9597,2180,38.7799,2180,88.3241,2180,86.339,2180,89.5582,2180,91.3478,
2174,96.6615,2174,0.00151056,2174,23.3853,2174,39.8201,2174,25.4742,2174,89.1854,2174,90.2948,2174,86.7644,2174,93.0247,
2168,96.6663,2168,-0.000425523,2168,24.6588,2168,41.0557,2168,18.872,2168,88.2314,2168,86.5133,2168,88.5287,2168,88.7913,
2162,96.6554,2162,0.00214879,2162,25.0836,2162,41.4696,2162,20.8194,2162,88.9401,2162,89.4415,2162,87.5471,2162,95.0459,
2156,96.6591,2156,0.00154242,2156,24.6191,2156,40.9458,2156,30.0647,2156,88.6259,2156,87.687,2156,87.7575,2156,87.824,
2150,96.666,2150,0.00162064,2150,22.8613,2150,39.144,2150,29.8261,2150,88.8115,2150,88.3081,2150,88.3704,2150,94.7143,
2144,96.6994,2144,-0.00162537,2144,19.2266,2144,35.4615,2144,19.0334,2144,88.6319,2144,88.7538,2144,86.8999,2144,89.5182,
2138,96.6708,2138,0.00180998,2138,13.8365,2138,29.3596,2138,34.4696,2138,88.4405,2138,87.149,2138,88.9874,2138,91.7511,
2132,96.6589,2132,0.00213173,2132,14.1211,2132,29.953,2132,58.983,2132,89.4356,2132,89.9649,2132,86.6662,2132,93.1306,
2126,96.6842,2126,0.00515363,2126,20.6839,2126,37.7406,2126,66.4002,2126,88.507,2126,86.708,2126,89.5288,2126,88.4528,
2120,96.6743,2120,0.000248357,2120,22.8939,2120,40.0253,2120,70.7497,2120,89.6533,2120,90.3949,2120,86.4617,2120,95.3358,
2114,96.6878,2114,0.00459188,2114,21.5779,2114,38.7792,2114,74.9306,2114,88.5474,2114,86.6302,2114,89.8143,2114,88.409,
2108,96.6752,2108,0.00164325,2108,23.9553,2108,41.483,2108,76.1393,2108,89.8541,2108,90.5131,2108,86.4215,2108,93.0305,
2102,96.7253,2102,0.000919017,2102,29.6138,2102,47.2881,2102,76.1671,2102,88.9566,2102,86.8368,2102,89.9498,2102,92.2484,
2096,96.6883,2096,-0.000288313,2096,36.389,2096,53.5889,2096,77.1178,2096,89.5569,2096,90.3116,2096,86.4154,2096,88.796,
2090,96.7041,2090,0.00268716,2090,43.1373,2090,59.0452,2090,78.8378,2090,89.519,2090,87.2516,2090,90.0234,2090,95.2536,
2084,96.7016,2084,0.00263153,2084,48.4042,2084,62.9342,2084,79.4048,2084,89.10569,2084,89.9207,2084,86.4602,2084,88.5456,
2078,96.699,2078,-0.00049271,2078,51.7805,2078,65.3601,2078,79.4648,2078,89.9541,2078,87.7369,2078,90.0074,2078,92.5698,
2072,96.7271,2072,0.00144297,2072,53.8747,2072,66.9029,2072,79.133,2072,88.7661,2072,89.4591,2072,86.4611,2072,93.1186,
2066,96.7174,2066,0.00187283,2066,55.2489,2066,67.8765,2066,79.2905,2066,89.8653,2066,88.0002,2066,89.9029,2066,88.1854,
2060,96.72,2060,-0.000413468,2060,56.1157,2060,68.4186,2060,80.0525,2060,89.0192,2060,89.197,2060,86.5624,2060,95.0208,
2054,96.7131,2054,-0.000431357,2054,56.754,2054,68.834,2054,80.3765,2054,89.3321,2054,88.1926,2054,89.7177,2054,90.1912,
2048,96.7382,2048,0.00148773,2048,57.8763,2048,69.6039,2048,80.7121,2048,89.6822,2048,89.0527,2048,86.8211,2048,89.95681,
2042,96.7333,2042,0.00302989,2042,58.9966,2042,70.4456,2042,81.062,2042,88.8362,2042,88.3282,2042,89.4228,2042,95.1014,
2036,96.7902,2036,0.00309105,2036,59.7221,2036,70.96,2036,81.0885,2036,89.8701,2036,89.0863,2036,87.2736,2036,88.4862,
2030,96.7617,2030,0.0004906,2030,60.4096,2030,71.4291,2030,81.0662,2030,89.004,2030,88.2106,2030,88.8526,2030,91.7962,
2024,96.7434,2024,-0.000546214,2024,61.144,2024,71.8481,2024,80.9669,2024,89.3167,2024,89.23,2024,87.982,2024,94.2415,
2018,96.7817,2018,0.00174755,2018,61.7912,2018,72.1489,2018,81.0562,2018,89.7738,2018,88.1156,2018,88.1736,2018,87.9984,
2012,96.7691,2012,-0.00118765,2012,62.0627,2012,72.2971,2012,80.8621,2012,88.7946,2012,89.462,2012,88.8263,2012,93.0259,
2006,96.7592,2006,0.000824711,2006,62.0808,2006,72.3351,2006,80.7159,2006,89.8448,2006,87.8645,2006,87.3971,2006,93.4489,
2000,96.7796,2000,0.00170383,2000,62.1157,2000,72.4652,2000,81.1227,2000,89.3179,2000,89.7698,2000,89.5718,2000,87.9553,
1994,96.5024,1994,0.00162423,1994,62.4177,1994,72.6963,1994,81.2422,1994,89.0688,1994,87.4842,1994,86.6854,1994,93.4183,
1988,96.514,1988,0.00176404,1988,62.9017,1988,72.9115,1988,81.0553,1988,90.0238,1988,90.0963,1988,90.0027,1988,93.2784,
1982,96.511,1982,0.00125311,1982,63.0906,1982,72.9643,1982,80.9081,1982,88.9766,1982,87.1471,1982,86.505,1982,87.9239,
1976,96.5161,1976,0.00418247,1976,62.8339,1976,72.7461,1976,80.9805,1976,89.3112,1976,90.3164,1976,89.7302,1976,93.0426,
1970,96.5719,1970,0.00209078,1970,61.7487,1970,71.853,1970,80.8446,1970,89.8375,1970,86.8996,1970,87.0106,1970,93.7902,
1964,96.5613,1964,0.000696934,1964,59.0623,1964,69.78,1964,80.7466,1964,88.6464,1964,90.2486,1964,88.5775,1964,88.0313,
1958,96.5441,1958,-0.000668813,1958,53.8293,1958,65.7465,1958,80.5066,1958,89.4445,1958,87.0748,1958,88.2766,1958,91.9643,
1952,96.5573,1952,-0.00153683,1952,48.753,1952,61.615,1952,80.2041,1952,89.6218,1952,89.7063,1952,87.0797,1952,94.7289,
1946,96.5676,1946,0.00116726,1946,48.291,1946,61.011,1946,80.2328,1946,88.4755,1946,87.6446,1946,89.4169,1946,88.8842,
1940,96.5977,1940,-0.000401301,1940,51.3013,1940,63.4671,1940,80.477,1940,89.4873,1940,88.8017,1940,86.2573,1940,90.0348,
1934,96.5781,1934,0.00298119,1934,54.0495,1934,65.9931,1934,80.3102,1934,89.5303,1934,88.6245,1934,89.4406,1934,95.0242,
1928,96.6083,1928,0.00167958,1928,54.5365,1928,66.3998,1928,80.1622,1928,88.4295,1928,87.6717,1928,86.9669,1928,91.2046,
1922,96.6175,1922,-0.000218837,1922,51.3279,1922,63.5386,1922,79.8807,1922,89.5047,1922,89.6272,1922,88.0167,1922,88.1161,
1916,96.6434,1916,0.00128098,1916,43.8829,1916,57.0008,1916,79.4381,1916,89.626,1916,86.9305,1916,88.7153,1916,93.2004,
1910,96.6011,1910,0.000302813,1910,36.8344,1910,50.4335,1910,79.001,1910,88.3071,1910,89.8651,1910,86.4013,1910,94.3203,
1904,96.6517,1904,5.27893e-05,1904,36.9593,1904,50.2792,1904,79.1024,1904,88.9946,1904,87.1066,1904,89.2935,1904,89.1602,
1898,96.6477,1898,-0.00122508,1898,42.8452,1898,55.4561,1898,79.111,1898,89.7072,1898,88.9492,1898,86.8571,1898,89.3221,
1892,96.6827,1892,0.00342985,1892,50.6475,1892,62.1607,1892,78.9291,1892,88.3982,1892,88.4473,1892,88.0736,1892,94.4454,
1886,96.7022,1886,2.07565e-05,1886,56.9603,1886,67.5985,1886,78.6724,1886,88.6665,1886,87.5948,1886,88.8656,1886,93.2957,
1880,96.7024,1880,0.00185341,1880,59.5597,1880,69.8181,1880,78.5495,1880,89.8202,1880,89.648,1880,86.3271,1880,88.5046,
1874,96.7218,1874,0.0028125,1874,60.6919,1874,70.7419,1874,77.9711,1874,88.5934,1874,86.8286,1874,89.1557,1874,90.1845,
1868,96.7141,1868,0.00261964,1868,60.7544,1868,70.8666,1868,76.822,1868,87.939,1868,89.1676,1868,87.1956,1868,94.2148,
1862,96.7176,1862,0.00450031,1862,58.9837,1862,69.6432,1862,76.0329,1862,89.1041,1862,87.5917,1862,86.7618,1862,93.4868,
1856,96.7382,1856,0.00245316,1856,58.32,1856,69.1922,1856,76.0665,1856,89.0252,1856,87.3057,1856,88.8055,1856,89.0648,
1850,96.7652,1850,0.00268134,1850,59.8677,1850,70.3175,1850,76.3846,1850,87.5368,1850,89.0255,1850,86.0957,1850,89.0202,
1844,96.7636,1844,0.0025112,1844,61.3604,1844,71.3455,1844,76.5864,1844,87.9012,1844,86.4166,1844,87.4694,1844,93.3788,
1838,96.7591,1838,0.00159852,1838,62.3532,1838,72.0315,1838,76.6734,1838,89.1259,1838,88.5985,1838,88.2646,1838,94.5953,
1832,96.7669,1832,-5.74554e-05,1832,62.4675,1832,72.0877,1832,76.8874,1832,88.2973,1832,87.6021,1832,85.6397,1832,90.8352,
1826,96.8123,1826,0.000261955,1826,62.3571,1826,71.999,1826,76.5362,1826,87.1471,1826,86.617,1826,87.7295,1826,88.3404,
1820,96.7768,1820,0.000825108,1820,62.2545,1820,71.9209,1820,75.4765,1820,87.8762,1820,88.9287,1820,87.8475,1820,90.1412,
1814,96.7783,1814,-0.00093185,1814,61.1898,1814,71.0794,1814,74.4653,1814,89.1093,1814,86.7971,1814,85.7615,1814,94.0922,
1808,96.7867,1808,0.00278483,1808,59.4553,1808,69.6983,1808,73.9835,1808,88.3525,1808,87.4456,1808,87.9416,1808,94.4342,
1802,96.7821,1802,0.00314329,1802,56.6814,1802,67.541,1802,74.1959,1802,87.0501,1802,88.593,1802,87.6167,1802,90.9696,
1796,96.8203,1796,0.00179621,1796,53.0039,1796,64.704,1796,74.3058,1796,87.2119,1796,86.0833,1796,85.4198,1796,88.2159,
1790,96.7872,1790,-0.000635454,1790,49.5012,1790,62.092,1790,73.1831,1790,88.0623,1790,87.3849,1790,87.1022,1790,89.1252,
1784,96.8267,1784,0.00248692,1784,46.6257,1784,59.9916,1784,74.9656,1784,87.6472,1784,87.4476,1784,86.9982,1784,92.4542,
1778,96.7805,1778,0.00129184,1778,46.4638,1778,60.05,1778,74.9055,1778,86.2182,1778,85.2526,1778,84.693,1778,94.8027,
1772,96.7945,1772,0.00179482,1772,48.0143,1772,61.5136,1772,72.2895,1772,85.4999,1772,86.8627,1772,85.8396,1772,93.8898,
1766,96.7768,1766,-0.000503474,1766,47.5996,1766,61.2092,1766,67.3656,1766,86.1765,1766,86.812,1766,86.851,1766,90.8412,
1760,96.7894,1760,0.00325355,1760,45.2104,1760,58.9717,1760,67.6755,1760,86.4403,1760,84.4895,1760,84.3229,1760,88.4151,
1754,96.7628,1754,-0.000633524,1754,41.345,1754,55.6017,1754,68.7448,1754,85.2601,1754,85.2474,1754,83.4732,1754,88.4562,
1748,96.7715,1748,0.00173911,1748,36.7782,1748,51.8013,1748,72.8204,1748,84.359,1748,85.4166,1748,85.2213,1748,90.6212,
1742,96.7157,1742,0.00234053,1742,33.1212,1742,48.4352,1742,75.4608,1742,83.7814,1742,83.4767,1742,84.0285,1742,93.3099,
1736,96.729,1736,-0.000801796,1736,28.717,1736,44.3151,1736,72.1092,1736,84.9606,1736,85.3811,1736,83.4948,1736,94.7266,
1730,96.704,1730,0.00172071,1730,25.564,1730,41.3156,1730,66.1247,1730,85.0324,1730,85.8497,1730,84.5688,1730,94.3287,
1724,96.6767,1724,0.00314692,1724,23.103,1724,38.9145,1724,63.7894,1724,82.8807,1724,82.1178,1724,83.2361,1724,92.481,
1718,96.6921,1718,-0.00161647,1718,21.707,1718,37.5793,1718,64.4744,1718,79.6008,1718,79.6633,1718,78.8955,1718,90.3302,
1712,96.6629,1712,0.00236377,1712,23.2144,1712,39.0796,1712,62.6207,1712,79.4883,1712,81.5601,1712,78.891,1712,88.685,
1706,96.6291,1706,0.00158454,1706,21.6602,1706,37.1164,1706,60.009,1706,82.8491,1706,83.5094,1706,83.6185,1706,88.2072,
1700,96.6138,1700,0.00119093,1700,20.9991,1700,36.69,1700,50.0661,1700,85.0737,1700,84.5307,1700,85.895,1700,88.7549,
1694,96.6004,1694,0.00112938,1694,23.329,1694,38.5148,1694,38.9024,1694,87.2266,1694,87.5572,1694,85.9935,1694,89.9462,
1688,96.6022,1688,0.00247016,1688,21.313,1688,36.0573,1688,33.776,1688,88.887,1688,89.0486,1688,86.6272,1688,91.3772,
1682,96.5533,1682,0.00170972,1682,13.9415,1682,28.2059,1682,27.941,1682,89.5322,1682,87.8817,1682,88.6022,1682,92.8213,
1676,96.5733,1676,-0.00171239,1676,14.6978,1676,29.4846,1676,28.7481,1676,89.7228,1676,87.9955,1676,89.5287,1676,93.8733,
1670,96.5086,1670,0.00129119,1670,22.3031,1670,38.372,1670,40.1522,1670,89.8472,1670,89.8345,1670,88.5721,1670,94.5268,
1664,96.489,1664,0.00363834,1664,27.82,1664,44.1412,1664,55.6836,1664,89.8351,1664,89.8796,1664,87.5874,1664,94.6891,
1658,96.4593,1658,0.00487055,1658,39.8778,1658,55.3301,1658,71.2161,1658,89.8714,1658,88.5818,1658,88.3553,1658,94.629,
1652,96.459,1652,0.000507173,1652,56.259,1652,68.26,1652,77.6956,1652,89.7931,1652,88.5573,1652,89.7707,1652,94.4121,
1646,96.4156,1646,0.00204808,1646,66.8071,1646,75.809,1646,72.8156,1646,89.7689,1646,89.9809,1646,89.9599,1646,94.1342,
1640,96.3764,1640,-0.000445566,1640,71.3291,1640,78.9074,1640,74.7725,1640,89.7598,1640,90.2761,1640,88.8073,1640,93.8733,
1634,96.3168,1634,0.00307858,1634,73.2292,1634,80.2455,1634,75.318,1634,89.8575,1634,89.0867,1634,87.9194,1634,93.7073,
1628,96.3126,1628,0.00173455,1628,75.3543,1628,81.5116,1628,79.3601,1628,90.0518,1628,88.4547,1628,88.2818,1628,93.5948,
1622,96.3297,1622,0.00324589,1622,76.7809,1622,82.2164,1622,83.8803,1622,90.2296,1622,89.3063,1622,89.3966,1622,93.545,
1616,96.2722,1616,-0.000845892,1616,78.8285,1616,83.6413,1616,86.4036,1616,90.4214,1616,90.3608,1616,90.0873,1616,93.6732,
1610,96.2328,1610,0.00204938,1610,80.656,1610,84.8798,1610,87.5057,1610,90.5999,1610,90.1072,1610,89.7183,1610,93.8693,
1604,96.2548,1604,0.00221505,1604,82.0702,1604,85.822,1604,87.9986,1604,90.7268,1604,89.0539,1604,88.7438,1604,94.1203,
1598,96.1866,1598,0.0037835,1598,83.1376,1598,86.469,1598,88.3601,1598,90.8044,1598,88.5658,1598,88.0247,1598,94.3667,
1592,96.1435,1592,0.00328443,1592,83.9371,1592,87.0791,1592,88.6058,1592,90.9547,1592,89.1671,1592,88.1741,1592,94.5626,
1586,96.1733,1586,0.00249041,1586,84.6131,1586,87.4473,1586,88.6774,1586,90.9407,1586,90.0831,1586,88.8044,1586,94.4456,
1580,96.0752,1580,0.00166053,1580,85.186,1580,87.8774,1580,88.9301,1580,91.0341,1580,90.3505,1580,89.6474,1580,94.1115,
1574,96.0919,1574,0.00156029,1574,85.6426,1574,88.1655,1574,89.0389,1574,91.0828,1574,89.7538,1574,90.0163,1574,93.3726,
1568,96.0281,1568,0.00118076,1568,85.9812,1568,88.4196,1568,89.0822,1568,91.0518,1568,88.9161,1568,89.8488,1568,92.1827,
1562,96.0747,1562,0.000500689,1562,86.4924,1562,88.7038,1562,89.1519,1562,91.0137,1562,88.603,1562,89.2501,1562,90.6266,
1556,96.0136,1556,0.00298487,1556,86.9585,1556,89.0633,1556,89.1779,1556,91.0006,1556,88.9933,1556,88.6713,1556,89.3321,
1550,95.9611,1550,0.000779327,1550,87.2973,1550,89.2133,1550,89.1939,1550,90.8729,1550,89.7128,1550,88.2305,1550,88.5356,
1544,96.0226,1544,-0.000483688,1544,87.5184,1544,89.366,1544,89.0805,1544,90.7001,1544,90.1345,1544,88.0181,1544,88.7945,
1538,95.9872,1538,0.00109935,1538,87.694,1538,89.5012,1538,88.9784,1538,90.5296,1538,90.2161,1538,88.1346,1538,90.3439,
1532,95.9317,1532,0.00129611,1532,87.8319,1532,89.5124,1532,88.8585,1532,90.2256,1532,89.8323,1532,88.4254,1532,92.5631,
1526,95.9377,1526,0.00256518,1526,87.7993,1526,89.4898,1526,88.7822,1526,89.9139,1526,89.297,1526,88.6999,1526,94.2075,
1520,95.9537,1520,0.000845875,1520,87.6782,1520,89.3632,1520,88.6968,1520,89.6127,1520,88.8609,1520,88.9978,1520,93.9115,
1514,95.9372,1514,0.00133215,1514,87.501,1514,89.2861,1514,88.5833,1514,89.4738,1514,88.6675,1514,89.269,1514,91.6893,
1508,95.9342,1508,0.00296408,1508,87.1036,1508,89.0578,1508,88.5227,1508,89.5922,1508,88.6878,1508,89.4464,1508,89.2559,
1502,95.9258,1502,0.000814787,1502,86.6434,1502,88.7231,1502,88.4839,1502,89.8953,1502,88.8798,1502,89.625,1502,88.8154,
1496,95.9321,1496,0.00241,1496,86.3499,1496,88.5462,1496,88.212,1496,90.3941,1496,89.1293,1496,89.592,1496,91.2002,
1490,95.9608,1490,0.000509926,1490,85.8082,1490,88.1995,1490,88.0496,1490,90.8929,1490,89.3881,1490,89.6121,1490,93.9058,
1484,95.93,1484,0.00354336,1484,84.908,1484,87.6158,1484,87.967,1484,90.9892,1484,89.5963,1484,89.6155,1484,93.5548,
1478,95.9256,1478,0.000533406,1478,84.3126,1478,87.2725,1478,87.9654,1478,90.6641,1478,89.742,1478,89.5314,1478,90.3054,
1472,95.9253,1472,0.00350926,1472,83.7098,1472,86.8751,1472,87.7852,1472,89.9266,1472,89.793,1472,89.4714,1472,88.7586,
1466,95.926,1466,0.00212984,1466,82.9868,1466,86.4207,1466,87.6848,1466,89.4104,1466,89.8103,1466,89.4032,1466,91.5486,
1460,95.9181,1460,0.00170743,1460,82.3595,1460,86.0628,1460,87.5995,1460,89.6064,1460,89.8101,1460,89.3704,1460,94.1662,
1454,95.9322,1454,0.00384729,1454,81.1271,1454,85.3176,1454,87.3454,1454,90.2114,1454,89.7548,1454,89.231,1454,91.5535,
1448,95.9364,1448,0.00674451,1448,77.8944,1448,83.1256,1448,87.0847,1448,90.5744,1448,89.6779,1448,89.058,1448,88.7571,
1442,95.9476,1442,0.00284265,1442,74.9821,1442,81.1617,1442,86.7809,1442,90.1599,1442,89.6057,1442,88.8174,1442,91.5741,
1436,95.9735,1436,0.00152479,1436,74.2764,1436,80.6495,1436,86.5644,1436,89.3354,1436,89.4995,1436,88.4985,1436,93.9949,
1430,95.9702,1430,0.00123316,1430,72.7957,1430,79.565,1430,86.5545,1430,89.1282,1430,89.3162,1430,88.0448,1430,90.2153,
1424,96.0148,1424,0.00227682,1424,72.0891,1424,78.9827,1424,86.596,1424,89.7416,1424,89.256,1424,87.7499,1424,89.4756,
1418,95.9894,1418,0.00258059,1418,72.5093,1418,79.1989,1418,86.3187,1418,89.9255,1418,89.2606,1418,87.6284,1418,93.7359,
1412,96.04,1412,0.00171044,1412,73.2719,1412,79.6761,1412,86.0133,1412,89.318,1412,89.1944,1412,87.632,1412,91.4972,
1406,96.0341,1406,-0.000902297,1406,73.2655,1406,79.5945,1406,86.4585,1406,89.2915,1406,89.137,1406,87.8822,1406,89.1403,
1400,96.0665,1400,-0.00159745,1400,72.1203,1400,78.7827,1400,86.7457,1400,89.9587,1400,88.9332,1400,88.2512,1400,93.5202,
1394,96.0676,1394,0.00229077,1394,69.1741,1394,76.794,1394,86.7785,1394,89.867,1394,88.7961,1394,88.7533,1394,90.9237,
1388,96.1085,1388,0.00471465,1388,67.6495,1388,75.8064,1388,86.9494,1388,89.3091,1388,88.6317,1388,88.9202,1388,89.8893,
1382,96.116,1382,-0.00034171,1382,68.1702,1382,76.1657,1382,87.3958,1382,89.9443,1382,88.5491,1382,88.7593,1382,93.6433,
1376,96.1535,1376,0.00246556,1376,67.0613,1376,75.4843,1376,87.7298,1376,90.2387,1376,88.6389,1376,88.4188,1376,89.4035,
1370,96.1788,1370,0.000954704,1370,66.1205,1370,74.9102,1370,88.1958,1370,89.6661,1370,88.9316,1370,88.1406,1370,92.3284,
1364,96.1488,1364,0.000644604,1364,68.3314,1364,76.4918,1364,88.7443,1364,90.3654,1364,89.3432,1364,88.3705,1364,91.5275,
1358,96.1679,1358,0.00268501,1358,71.0481,1358,78.2796,1358,88.8804,1358,90.4659,1358,89.5723,1358,88.8302,1358,90.0795,
1352,96.1741,1352,0.00170861,1352,71.6989,1352,78.8296,1352,88.7906,1352,89.7743,1352,89.6795,1352,89.2192,1352,93.2703,
1346,96.1676,1346,0.00143581,1346,73.344,1346,79.9458,1346,88.7121,1346,90.5339,1346,89.467,1346,88.9377,1346,89.2089,
1340,96.1517,1340,0.000687224,1340,77.952,1340,83.0539,1340,88.9524,1340,90.1875,1340,89.1382,1340,88.3572,1340,93.6266,
1334,96.1467,1334,-0.000735563,1334,84.6751,1334,87.4447,1334,89.139,1334,90.0666,1334,88.9247,1334,88.3814,1334,89.1944,
1328,96.203,1328,0.00466818,1328,88.0357,1328,89.5891,1328,89.1952,1328,90.601,1328,89.0684,1328,88.9571,1328,93.568,
1322,96.1357,1322,0.00285736,1322,89.4118,1322,90.3919,1322,89.2066,1322,89.8514,1322,89.4508,1322,89.0793,1322,89.1912,
1316,96.1385,1316,0.00344886,1316,89.8874,1316,90.7808,1316,89.3337,1316,90.5627,1316,89.6083,1316,88.4725,1316,93.5611,
1310,96.1438,1310,0.000647313,1310,90.2929,1310,90.9326,1310,89.4355,1310,89.9661,1310,89.2272,1310,88.312,1310,89.2734,
1304,96.1069,1304,0.000677074,1304,90.3922,1304,91.0995,1304,89.3143,1304,90.3179,1304,88.9496,1304,88.9969,1304,93.2401,
1298,96.0406,1298,0.00209946,1298,90.5811,1298,91.137,1298,89.3478,1298,90.1394,1298,89.1084,1298,88.8228,1298,90.0358,
1292,96.1306,1292,0.00228946,1292,90.5781,1292,91.1604,1292,89.4474,1292,90.1589,1292,89.4689,1292,88.212,1292,91.8271,
1286,96.0317,1286,0.00276579,1286,90.6322,1286,91.2293,1286,89.4714,1286,90.2138,1286,89.3348,1286,88.7271,1286,92.0137,
1280,95.9559,1280,0.00199319,1280,90.7201,1280,91.2174,1280,89.4773,1280,90.1498,1280,88.9193,1280,88.8876,1280,89.7802,
1274,95.9262,1274,0.00421516,1274,90.7773,1274,91.2269,1274,89.468,1274,90.1078,1274,89.1433,1274,88.2245,1274,93.303,
1268,95.9046,1268,0.00332541,1268,90.7568,1268,91.2031,1268,89.4061,1268,90.1651,1268,89.4107,1268,88.6628,1268,90.2888,
1262,95.8575,1262,0.00103716,1262,90.7267,1262,91.1848,1262,89.3465,1262,89.9802,1262,89.0203,1262,88.6786,1262,90.5888,
1256,95.8173,1256,0.00215451,1256,90.636,1256,91.1244,1256,89.2307,1256,90.193,1256,88.9235,1256,88.1775,1256,93.2086,
1250,95.7402,1250,0.000180046,1250,90.4352,1250,91.0196,1250,89.1213,1250,89.9345,1250,89.3564,1250,88.783,1250,90.5001,
1244,95.7047,1244,0.000201377,1244,90.1121,1244,90.8445,1244,88.9599,1244,90.1115,1244,89.0394,1244,88.3025,1244,90.1354,
1238,95.6791,1238,0.00362877,1238,89.8981,1238,90.6986,1238,88.7599,1238,90.0404,1238,88.916,1238,88.4556,1238,92.9164,
1232,95.5857,1232,0.0014899,1232,89.6103,1232,90.4943,1232,88.4205,1232,89.8071,1232,89.2388,1232,88.4606,1232,92.0763,
1226,95.5118,1226,0.00220562,1226,89.1746,1226,90.2208,1226,87.8342,1226,89.9917,1226,88.798,1226,88.1665,1226,89.7726,
1220,95.4632,1220,0.00108098,1220,88.6869,1220,89.8568,1220,87.1125,1220,89.8167,1220,88.9325,1220,88.4295,1220,90.5252,
1214,95.3756,1214,0.00224269,1214,87.7221,1214,89.2098,1214,86.2739,1214,89.4291,1214,88.8563,1214,87.9007,1214,92.6569,
1208,95.3057,1208,0.00432849,1208,85.8387,1208,87.9391,1208,85.9291,1208,89.5054,1208,88.4529,1208,88.1509,1208,92.8244,
1202,95.231,1202,0.00274123,1202,83.5477,1202,86.4297,1202,86.27,1202,89.4764,1202,88.6385,1202,87.5702,1202,91.2276,
1196,95.1542,1196,-0.000239705,1196,81.1657,1196,84.848,1196,86.8167,1196,88.9951,1196,88.1414,1196,87.8077,1196,89.9773,
1190,95.086,1190,0.0021745,1190,78.6855,1190,83.2057,1190,87.3815,1190,88.9433,1190,88.5454,1190,87.5238,1190,89.934,
1184,95.0155,1184,0.00122731,1184,74.9874,1184,80.6448,1184,87.9085,1184,89.4261,1184,88.2808,1184,87.8187,1184,90.7855,
1178,94.9493,1178,0.00343745,1178,70.9875,1178,77.9205,1178,88.2193,1178,89.6203,1178,88.6255,1178,87.7679,1178,91.7704,
1172,94.8637,1172,0.0017914,1172,70.6844,1172,77.9057,1172,88.1555,1172,89.3147,1172,88.275,1172,87.6178,1172,92.4267,
1166,94.7728,1166,0.00519291,1166,72.0528,1166,78.9219,1166,87.74,1166,89.1236,1166,88.7023,1166,87.96,1166,92.7059,
1160,94.7012,1160,0.00445665,1160,74.1893,1160,80.439,1160,86.8634,1160,89.3418,1160,88.5554,1160,87.9015,1160,92.7868,
1154,94.6837,1154,0.00268141,1154,77.2253,1154,82.5563,1154,84.2416,1154,89.7215,1154,89.0172,1154,88.2016,1154,92.7193,
1148,94.565,1148,0.00339882,1148,79.5639,1148,83.9532,1148,80.2443,1148,89.989,1148,88.7847,1148,88.2396,1148,92.6906,
1142,94.5421,1142,0.000946149,1142,81.4126,1142,85.1965,1142,79.1295,1142,90.1214,1142,88.9816,1142,88.0525,1142,92.6851,
1136,94.4527,1136,0.00056983,1136,82.9501,1136,86.2075,1136,83.0335,1136,90.1629,1136,89.057,1136,88.2929,1136,92.6371,
1130,94.421,1130,0.00194496,1130,85.1035,1130,87.5739,1130,86.6219,1130,90.115,1130,88.8345,1130,88.3103,1130,92.4063,
1124,94.3986,1124,0.00167929,1124,87.0667,1124,88.8402,1124,88.3665,1124,90.0598,1124,89.1428,1124,88.1162,1124,91.9455,
1118,94.368,1118,0.00155566,1118,88.9627,1118,90.0515,1118,89.0938,1118,90.0163,1118,89.0069,1118,88.1289,1118,91.1653,
1112,94.3335,1112,0.000615467,1112,89.9577,1112,90.6883,1112,89.4905,1112,89.9956,1112,88.8585,1112,88.2485,1112,90.4255,
1106,94.3051,1106,-0.00100829,1106,90.7317,1106,91.1412,1106,89.6915,1106,89.9837,1106,89.0967,1106,88.2195,1106,90.3445,
1100,94.2476,1100,-0.00206084,1100,91.3238,1100,91.4862,1100,89.8299,1100,90.0226,1100,88.9718,1100,88.1127,1100,91.2891,
1094,94.2404,1094,0.00303608,1094,91.4804,1094,91.5952,1094,89.8309,1094,90.0186,1094,88.8418,1094,88.0534,1094,92.355,
1088,94.2556,1088,-8.87627e-05,1088,91.564,1088,91.6094,1088,89.8804,1088,90.0298,1088,88.8775,1088,88.0558,1088,91.921,
1082,94.2084,1082,0.00238812,1082,91.6059,1082,91.6914,1082,89.9232,1082,90.0223,1082,89.0389,1082,88.1449,1082,90.6159,
1076,94.2016,1076,0.00277152,1076,91.6629,1076,91.679,1076,89.923,1076,89.9652,1076,89.0645,1076,88.1719,1076,91.0041,
1070,94.2131,1070,0.000343511,1070,91.6143,1070,91.6525,1070,89.9031,1070,89.9034,1070,88.9014,1070,88.1587,1070,92.2783,
1064,94.2226,1064,0.00209298,1064,91.501,1064,91.5835,1064,89.8737,1064,89.9305,1064,88.7748,1064,88.0916,1064,91.1476,
1058,94.1882,1058,0.00235028,1058,91.4576,1058,91.56,1058,89.8941,1058,89.9478,1058,88.7703,1058,88.0986,1058,90.9604,
1052,94.1931,1052,0.00358128,1052,91.3597,1052,91.455,1052,89.8467,1052,89.8508,1052,88.8818,1052,88.0313,1052,92.1595,
1046,94.1871,1046,0.00293049,1046,91.2759,1046,91.4472,1046,89.8584,1046,89.8317,1046,88.9592,1046,88.0509,1046,90.8024,
1040,94.209,1040,0.00164685,1040,90.9646,1040,91.2152,1040,89.8144,1040,89.9843,1040,88.9649,1040,87.984,1040,91.7999,
1034,94.1898,1034,0.00235176,1034,90.8826,1034,91.1838,1034,89.842,1034,89.8668,1034,88.9689,1034,87.9913,1034,91.1457,
1028,94.2207,1028,0.00104988,1028,90.8329,1028,91.1115,1028,89.8431,1028,89.6818,1028,88.9222,1028,87.9602,1028,91.6162,
1022,94.177,1022,0.00289257,1022,90.7922,1022,91.1304,1022,89.8593,1022,90.0032,1022,88.9213,1022,87.9783,1022,91.1962,
1016,94.1279,1016,0.0023005,1016,90.7744,1016,91.0796,1016,89.9084,1016,89.7564,1016,88.9567,1016,87.9724,1016,91.7356,
1010,94.1273,1010,0.00187042,1010,90.5843,1010,90.9591,1010,89.9271,1010,89.8605,1010,88.8834,1010,87.9191,1010,91.0254,
1004,94.087,1004,-0.000144154,1004,90.4968,1004,90.895,1004,89.9764,1004,89.7954,1004,88.8623,1004,87.8874,1004,91.7706,
998,94.0308,998,0.00282894,998,90.6672,998,91.0283,998,90.0088,998,89.8549,998,88.8144,998,87.871,998,91.3667,
992,93.9796,992,0.00385744,992,90.9205,992,91.2191,992,90.051,992,89.8033,992,88.7567,992,87.8729,992,91.2378,
986,93.9092,986,0.000801448,986,91.0911,986,91.2879,986,90.0777,986,89.853,986,88.6994,986,87.8663,986,91.6324,
980,93.8404,980,0.00200128,980,91.3158,980,91.4411,980,90.091,980,89.7551,980,88.7363,980,87.8586,980,91.5331,
974,93.7737,974,0.000593142,974,91.5485,974,91.5664,974,90.1259,974,89.8121,974,88.7994,974,87.8031,974,91.3216,
968,93.7005,968,-0.000940501,968,91.6998,968,91.6649,968,90.1506,968,89.7838,968,88.8052,968,87.7968,968,91.3444,
962,93.6074,962,0.00230692,962,91.8308,962,91.7358,962,90.1785,962,89.7661,962,88.7236,962,87.7917,962,91.4429,
956,93.5238,956,0.00221294,956,91.9105,956,91.7741,956,90.1848,956,89.7644,956,88.7027,956,87.7462,956,91.4833,
950,93.4382,950,-0.00160247,950,91.9643,950,91.8059,950,90.1885,950,89.7654,950,88.7502,950,87.7363,950,91.4757,
944,93.3654,944,0.00247666,944,91.9742,944,91.8107,944,90.1728,944,89.7436,944,88.7181,944,87.7181,944,91.4739,
938,93.3095,938,0.000404263,938,91.9406,938,91.7806,938,90.1201,938,89.7201,938,88.6904,938,87.6792,938,91.4742,
932,93.2407,932,0.000141057,932,91.848,932,91.7218,932,90.0492,932,89.7154,932,88.7064,932,87.6599,932,91.4892,
926,93.1978,926,0.00134019,926,91.7104,926,91.6218,926,90.0133,926,89.6875,926,88.6586,926,87.6113,926,91.4969,
920,93.1527,920,0.00218931,920,91.4848,920,91.4689,920,90.083,920,89.6585,920,88.6419,920,87.5735,920,91.5072,
914,93.1372,914,0.00173245,914,91.0995,914,91.21,914,90.1562,914,89.6374,914,88.6177,914,87.5319,914,91.471,
908,93.1138,908,0.00311095,908,90.6799,908,90.9461,908,90.2355,908,89.6531,908,88.6278,908,87.5397,908,91.4706,
902,93.1424,902,3.93611e-05,902,90.2619,902,90.6773,902,90.2598,902,89.6376,902,88.5968,902,87.4954,902,91.5185,
896,93.1875,896,-0.000218152,896,90.1431,896,90.6119,896,90.2463,896,89.6241,896,88.5956,896,87.4421,896,91.5359,
890,93.2448,890,0.00464403,890,90.34,890,90.7579,890,90.1922,890,89.6421,890,88.5643,890,87.4402,890,91.4959,
884,93.3213,884,0.0020426,884,90.8245,884,91.0548,884,89.971,884,89.6421,884,88.5587,884,87.417,884,91.5057,
878,93.4171,878,0.00193218,878,91.3042,878,91.3463,878,89.5779,878,89.6281,878,88.5557,878,87.388,878,91.5182,
872,93.5311,872,0.00180426,872,91.5491,872,91.4794,872,89.6362,872,89.6258,872,88.5288,872,87.341,872,91.5108,
866,93.6572,866,0.00340862,866,91.7241,866,91.5852,866,89.9492,866,89.6117,866,88.5027,866,87.2949,866,91.5281,
860,93.7992,860,-0.000748204,860,91.8671,860,91.6656,860,90.1109,860,89.5953,860,88.4881,860,87.2409,860,91.5135,
854,93.944,854,-0.000934155,854,91.9892,854,91.7369,854,90.1698,854,89.5845,854,88.4671,854,87.1838,854,91.5197,
848,94.0945,848,0.000171667,848,92.0556,848,91.7713,848,90.1806,848,89.5666,848,88.4529,848,87.1233,848,91.516,
842,94.2292,842,0.00267402,842,92.1002,842,91.7906,842,90.1884,842,89.5524,842,88.4464,842,87.0632,842,91.5253,
836,94.3791,836,0.00329621,836,92.1115,836,91.7964,836,90.168,836,89.5272,836,88.4272,836,86.9792,836,91.5117,
830,94.5191,830,0.000751845,830,92.1117,830,91.7958,830,90.1499,830,89.5057,830,88.4106,830,86.8958,830,91.5141,
824,94.6495,824,0.00101195,824,92.1035,824,91.7917,824,90.1408,824,89.4879,824,88.3891,824,86.7979,824,91.5214,
818,94.7715,818,0.0016357,818,92.0902,818,91.7816,818,90.1195,818,89.4614,818,88.3649,818,86.6817,818,91.5109,
812,94.8878,812,0.00190597,812,92.0649,812,91.7627,812,90.1039,812,89.4373,812,88.3387,812,86.5418,812,91.5011,
806,94.9787,806,0.0026869,806,92.0563,806,91.7597,806,90.0973,806,89.4113,806,88.3199,806,86.3908,806,91.4956,
800,95.0493,800,0.00100844,800,92.0483,800,91.7616,800,90.0939,800,89.3824,800,88.2931,800,86.1987,800,91.4816,
794,95.1088,794,0.0028588,794,92.0582,794,91.7557,794,90.0981,794,89.3582,794,88.2477,794,85.9829,794,91.4675,
788,95.1337,788,0.000580191,788,92.0448,788,91.7367,788,90.0891,788,89.3372,788,88.2256,788,85.7166,788,91.4429,
782,95.0978,782,-0.000670781,782,92.1474,782,91.8052,782,90.1827,782,89.3236,782,88.2365,782,85.3644,782,91.5105,
776,95.1685,776,-0.0014946,776,92.0481,776,91.7728,776,90.1635,776,89.2003,776,88.1676,776,84.9264,776,91.443,
770,95.1261,770,0.000140993,770,92.1223,770,91.7538,770,90.1978,770,89.2324,770,88.1621,770,84.4281,770,91.4792,
764,95.1595,764,0.00138367,764,92.1019,764,91.773,764,90.2138,764,89.1831,764,88.1128,764,83.7037,764,91.4464,
758,95.191,758,0.00432518,758,92.071,758,91.7512,758,90.2231,758,89.1561,758,88.0915,758,82.8105,758,91.4138,
752,95.1792,752,0.00208771,752,92.0288,752,91.7275,752,90.2684,752,89.1005,752,88.0596,752,81.7107,752,91.4024,
746,95.174,746,-0.00224174,746,91.9706,746,91.6862,746,90.2957,746,89.0539,746,88.0312,746,80.3388,746,91.3944,
740,95.1915,740,0.00206537,740,91.9007,740,91.6347,740,90.3064,740,88.9964,740,87.9944,740,78.7633,740,91.3715,
734,95.2128,734,-0.000461511,734,91.8695,734,91.6084,734,90.3127,734,88.947,734,87.9707,734,77.2051,734,91.3689,
728,95.2528,728,0.00414001,728,91.8652,728,91.5973,728,90.3049,728,88.8845,728,87.929,728,75.8228,728,91.3499,
722,95.2999,722,0.00454108,722,91.8998,722,91.6013,722,90.2672,722,88.8185,722,87.8902,722,74.6098,722,91.3285,
716,95.3648,716,0.000860273,716,91.9437,716,91.6193,716,90.2225,716,88.7434,716,87.8488,716,73.3909,716,91.3262,
710,95.4495,710,0.00241845,710,91.9607,710,91.598,710,90.1794,710,88.6445,710,87.7855,710,71.9407,710,91.3001,
704,95.5243,704,0.00159686,704,91.974,704,91.5778,704,90.1521,704,88.5512,704,87.736,704,69.9928,704,91.2945,
698,100.423,698,-0.00636656,698,92.3027,698,91.8565,698,90.0203,698,88.9028,698,88.352,698,64.548,698,91.8383,
692,100.687,692,-0.00168108,692,92.294,692,91.8305,692,89.9842,692,88.8039,692,88.3004,692,59.9692,692,91.8085,
686,100.942,686,-0.00154496,686,92.283,686,91.805,686,89.9723,686,88.6846,686,88.2267,686,52.8479,686,91.8059,
680,101.178,680,-0.00150276,680,92.2818,680,91.7928,680,89.9435,680,88.5687,680,88.1988,680,45.4434,680,91.8003,
674,101.417,674,-0.00159976,674,92.2791,674,91.7681,674,89.9187,674,88.434,674,88.145,674,43.948,674,91.7874,
668,101.662,668,-0.00158671,668,92.266,668,91.7512,668,89.8746,668,88.2569,668,88.067,668,51.1846,668,91.7772,
662,101.904,662,-0.00181414,662,92.2571,662,91.7485,662,89.8417,662,88.0612,662,88.0217,662,60.2017,662,91.776,
656,102.164,656,-0.00154273,656,92.2582,656,91.7502,656,89.8101,656,87.8116,656,87.9663,656,63.8403,656,91.7616,
650,102.432,650,-0.0016889,650,92.2595,650,91.7521,650,89.77,650,87.4793,650,87.9113,650,63.6377,650,91.7618,
644,102.722,644,-0.00176121,644,92.2386,644,91.741,644,89.7134,644,87.0017,644,87.8223,644,61.9633,644,91.7455,
638,102.944,638,-0.0017043,638,92.2281,638,91.7409,638,89.6699,638,86.3401,638,87.7656,638,60.3849,638,91.7438,
632,103.083,632,-0.00181293,632,92.2118,632,91.7384,632,89.6351,632,85.3286,632,87.696,632,58.2102,632,91.7557,
626,103.157,626,-0.00196552,626,92.1869,626,91.7298,626,89.5768,626,83.7209,626,87.5959,626,55.2064,626,91.7376,
[...]
596,103.499,596,-0.0020123,596,92.1288,596,91.7016,596,89.3419,596,45.52,596,86.9525,596,52.3345,596,91.6777,
590,103.456,590,-0.00202044,590,92.1066,590,91.6679,590,89.3314,590,29.9849,590,86.7349,590,53.5682,590,91.6582,
584,103.448,584,-0.00214024,584,92.1242,584,91.6581,584,89.3514,584,16.5008,584,86.5312,584,54.1559,584,91.6694,
578,103.524,578,-0.0021639,578,92.1075,578,91.637,578,89.3603,578,7.63233,578,86.2346,578,54.9163,578,91.6543,
572,103.613,572,-0.00211159,572,92.1113,572,91.618,572,89.3644,572,3.20706,572,85.8993,572,56.3438,572,91.6347,
566,103.747,566,0.00354173,566,92.0793,566,91.5829,566,89.3519,566,1.38537,566,85.4675,566,58.7861,566,91.6122,
560,103.903,560,0.00367157,560,92.0733,560,91.558,560,89.3411,560,0.677874,560,84.9163,560,62.3353,560,91.6052,
554,104.066,554,0.00359567,554,92.068,554,91.5423,554,89.3552,554,0.394489,554,84.058,554,66.2885,554,91.5863,
548,104.248,548,0.00337433,548,92.0509,548,91.525,548,89.3529,548,0.266198,548,82.7274,548,69.6605,548,91.5643,
542,104.45,542,0.00372678,542,92.0469,542,91.5047,542,89.3745,542,0.197401,542,80.9184,542,72.2535,542,91.5623,
536,104.63,536,0.00346423,536,92.0585,536,91.4995,536,89.3909,536,0.152826,536,78.6614,536,74.1897,536,91.5624,
530,104.848,530,0.00349636,530,92.0351,530,91.4749,530,89.393,530,0.124156,530,75.3433,530,75.5864,530,91.5383,
524,105.053,524,0.00338637,524,92.0371,524,91.4582,524,89.399,524,0.112731,524,69.6864,524,76.5511,524,91.5338,
518,105.258,518,0.00356971,518,92.0262,518,91.4516,518,89.41,518,0.119993,518,60.2594,518,77.134,518,91.525,
512,105.472,512,0.00349859,512,92.0027,512,91.4287,512,89.3956,512,0.14908,512,47.5415,512,77.3902,512,91.4906,
506,105.684,506,0.00344976,506,91.9814,506,91.4008,506,89.3976,506,0.206294,506,34.5317,506,77.351,506,91.4676,
500,105.889,500,0.00359779,500,91.9737,500,91.3731,500,89.3904,500,0.298718,500,24.5776,500,77.1004,500,91.4466,
494,106.102,494,0.0035183,494,91.9557,494,91.3582,494,89.3703,494,0.440027,494,19.0388,494,76.6684,494,91.4334,
488,106.319,488,0.00345275,488,91.9502,488,91.3406,488,89.3462,488,0.655806,488,17.0315,488,76.0828,488,91.4087,
482,106.541,482,0.00358633,482,91.9251,482,91.3216,482,89.3283,482,0.987956,482,15.8138,482,75.3524,482,91.396,
476,106.77,476,0.00372483,476,91.9109,476,91.2952,476,89.3021,476,1.47793,476,12.8872,476,74.4786,476,91.3778,
470,107.004,470,0.00353241,470,91.895,470,91.2705,470,89.268,470,2.11336,470,8.76235,470,73.4404,470,91.3584,
464,107.249,464,0.00338105,464,91.8684,464,91.2442,464,89.2395,464,2.78906,464,5.46421,464,72.2219,464,91.3372,
458,107.515,458,0.00351604,458,91.8296,458,91.205,458,89.175,458,3.33765,458,3.76603,458,70.8352,458,91.301,
452,107.784,452,0.00374585,452,91.7781,452,91.1586,452,89.1147,452,3.657,452,3.16059,452,69.2019,452,91.2759,
446,108.054,446,0.00360555,446,91.7389,446,91.1529,446,89.0676,446,3.82249,446,2.95572,446,67.2049,446,91.2565,
440,108.371,440,0.00351047,440,91.6943,440,91.0996,440,88.9924,440,3.93925,440,2.7735,440,64.8675,440,91.2221,
434,108.687,434,0.00358563,434,91.6386,434,91.0629,434,88.9242,434,3.98301,434,2.71868,434,62.3156,434,91.2164,
428,109.022,428,0.00343366,428,91.5993,428,91.0133,428,88.8432,428,3.85255,428,3.02125,428,59.316,428,91.174,
422,109.319,422,0.00328617,422,91.5471,422,90.9763,422,88.7744,422,3.60726,422,3.72287,422,55.9269,422,91.1711,
416,109.634,416,0.00351491,416,91.4462,416,90.919,416,88.6867,416,3.3878,416,4.67527,416,52.2621,416,91.1396,
410,109.943,410,0.00354043,410,91.1934,410,90.8119,410,88.5717,410,3.232795,410,5.82557,410,48.2399,410,91.0844,
404,110.217,404,0.0034777,404,90.4603,404,90.6585,404,88.441,404,3.1024,404,7.2566,404,43.66362,404,91.0438,
398,110.51,398,0.00320664,398,87.913,398,90.2215,398,88.2775,398,2.98264,398,8.89043,398,38.5104,398,91.0173,
392,110.762,392,0.00357498,392,79.5929,392,88.8783,392,88.0581,392,2.75927,392,10.569,392,33.1712,392,90.9946,
386,111.008,386,0.00369011,386,57.7024,386,84.7644,386,87.7115,386,2.18438,386,12.1841,386,27.9796,386,90.9277,
380,111.181,380,0.00335877,380,24.1295,380,74.429,380,86.8626,380,1.23284,380,13.5043,380,22.7306,380,90.8467,
374,111.271,374,0.00328158,374,3.98848,374,56.3231,374,83.0649,374,0.430609,374,14.2165,374,17.5281,374,90.7979,
368,111.369,368,0.00354622,368,0.277736,368,36.5679,368,74.3159,368,0.107464,368,14.3681,368,12.9812,368,90.681,
362,111.466,362,0.00372886,362,0.0139152,362,23.022,362,69.693,362,0.0303253,362,13.9389,362,9.45109,362,90.5601,
356,111.661,356,0.00313236,356,-0.00261626,356,15.318,356,67.8046,356,0.0118609,356,12.8978,356,6.7396,356,90.3058,
350,111.86,350,0.00355078,350,-0.00395006,350,10.6996,350,67.0288,350,0.00616847,350,11.2919,350,4.7503,350,89.9125,
344,107.864,344,0.00366211,344,8.69575e-05,344,8.37646,344,66.0782,344,0.00488361,344,9.40678,344,3.25735,344,89.1525,
338,107.993,338,0.00335219,338,0.000254853,338,7.51341,338,64.9601,338,0.00738065,338,7.41451,338,2.2858,338,87.614,
332,108.165,332,0.00359022,332,0.000482201,332,6.051,332,63.3588,332,0.0144255,332,5.61824,332,1.6239,332,84.7452,
326,108.318,326,0.00353624,326,0.000871397,326,2.93078,326,61.6715,326,0.0320711,326,3.93738,326,1.18386,326,79.2616,
320,108.428,320,0.00335044,320,0.00323744,320,0.831383,320,59.6365,320,0.0577778,320,2.49784,320,0.897408,320,69.4384,
314,108.638,314,0.00336764,314,0.00413831,314,0.282527,314,57.1125,314,0.0562305,314,1.43395,314,0.639236,314,53.6255,
308,108.897,308,0.00342589,308,0.00148148,308,0.146466,308,53.995,308,0.0292492,308,0.720862,308,0.417174,308,33.0394,
302,109.208,302,0.00363071,302,0.000744578,302,0.145204,302,47.755,302,0.017156,302,0.355312,302,0.239068,302,13.8495,
296,109.477,296,0.00335906,296,0.000470632,296,0.306837,296,27.0079,296,0.0173796,296,0.173405,296,0.111229,296,3.15872,
290,109.603,290,0.00330118,290,0.00220198,290,0.930649,290,10.4761,290,0.0281242,290,0.0847271,290,0.0442931,290,0.296519,
284,109.71,284,0.00335684,284,0.0228675,284,2.39748,284,1.602,284,0.0470755,284,0.0483853,284,0.0184129,284,0.00512677,
278,109.704,278,0.00333674,278,0.238213,278,6.08657,278,0.00474905,278,0.0512198,278,0.0288871,278,0.00903742,278,-0.00314007,
272,109.72,272,0.00318938,272,0.824626,272,9.64145,272,-0.000884578,272,0.0185562,272,0.0136494,272,0.00434683,272,-0.00264927,
266,109.723,266,0.0032629,266,0.910142,266,8.92698,266,-0.00115198,266,0.00338747,266,0.0053506,266,0.00187744,266,-0.00267468,
260,109.726,260,0.00355958,260,0.309457,260,4.61368,260,-0.00137807,260,0.000496303,260,0.00223358,260,0.000721159,260,-0.00254058,
254,109.742,254,0.0032559,254,0.00286012,254,0.487648,254,-0.00115561,254,0.000364124,254,0.00125105,254,0.000844326,254,-0.00218845,
248,109.917,248,0.00324463,248,0.000231931,248,0.00150092,248,-0.00121495,248,6.50159e-05,248,0.00048733,248,0.000554675,248,-0.00212785,
242,109.525,242,0.00321435,242,0.000220091,242,0.000936575,242,-0.000982562,242,0.000161552,242,0.000375716,242,0.00053789,242,-0.00201481,
236,108.984,236,0.00330013,236,0.000216558,236,0.000360198,236,-0.00116324,236,0.000250465,236,0.000294335,236,0.00050426,236,-0.00169786,
230,108.277,230,0.00325905,230,0.000110624,230,0.000261131,230,-0.00163289,230,0.000364791,230,0.000314636,230,0.000509426,230,-0.0016661,
224,107.637,224,0.00343978,224,-2.37811e-05,224,0.000172999,224,-0.00238568,224,1.79145e-05,224,0.00010198,224,0.000372924,224,-0.0018295,
218,107.022,218,0.00354982,218,0.00010322,218,0.000110616,218,-0.00272255,218,-3.35894e-06,218,0.000200375,218,0.000334633,218,-0.00176637,
212,106.484,212,0.00336419,212,-0.000169096,212,3.18194e-05,212,-0.00278978,212,0.000103225,212,0.00010122,212,0.000203223,212,-0.00121419,
206,106.051,206,0.0034024,206,-4.60826e-05,206,0.000270974,206,-0.00272482,206,5.33396e-05,206,0.000361055,206,0.000445901,206,-0.000689371,
200,104.922,200,0.00315134,200,-2.40018e-05,200,0.000336214,200,-0.00288663,200,0.000128848,200,0.000128492,200,0.00038704,200,0.00055494,

Baseline 100%T,
Baseline 100%T
Collection Time: 14/03/2025 10:26:13 AM
Operator Name  :
Scan Version 6.0.0.1551
Parameter List :
Instrument  Cary 5000
Instrument Version  2.23
Method Log     :
Method Name    :
Date/Time stamp: 14/03/2025 10:17:44 AM
Method Modifications:
X Start nm Changed: 14/03/2025 10:20:01 AM, Old:800.000, New:2600.000
UVVIS Scan Rate nm Changed: 14/03/2025 10:20:01 AM, Old:  602.007, New:  600.000
NIR Scan Rate nm Changed: 14/03/2025 10:20:01 AM, Old:  602.007, New:  600.000
UVVIS Interval EV Changed: 14/03/2025 10:20:01 AM, Old:0.00015, New:0.00015
NIR Interval EV Changed: 14/03/2025 10:20:01 AM, Old:0.00015, New:0.00015
Common Interval EV Changed: 14/03/2025 10:20:01 AM, Old:0.00015, New:0.00015
Y mode Changed: 14/03/2025 10:20:01 AM, Old:Abs, New:%T
Y min Changed: 14/03/2025 10:20:01 AM, Old:     0.00, New:    -5.00
Y max Changed: 14/03/2025 10:20:01 AM, Old:     1.00, New:   105.00
Detector changeover Changed: 14/03/2025 10:20:01 AM, Old:   800.00, New:   700.00
Grating changeover Changed: 14/03/2025 10:20:01 AM, Old:   800.00, New:   700.00
Baseline Correction Changed: 14/03/2025 10:20:01 AM, Old:0, New:2
Sipper Type Changed: 14/03/2025 10:20:01 AM, Old:Internal RSA, New:External sipper
End Method Modifications
<Current Wavelength> , 200.000
<SBW (nm)> , 2.00
<Energy> , 39.81
<Slit Height> , Full

Baseline 0%T,
Baseline 0%T
Collection Time: 14/03/2025 10:31:23 AM
Operator Name  :
Scan Version 6.0.0.1551
Parameter List :
Instrument  Cary 5000
Instrument Version  2.23
Method Log     :
Method Name    :
Date/Time stamp: 14/03/2025 10:17:44 AM
Method Modifications:
X Start nm Changed: 14/03/2025 10:20:01 AM, Old:800.000, New:2600.000
UVVIS Scan Rate nm Changed: 14/03/2025 10:20:01 AM, Old:  602.007, New:  600.000
NIR Scan Rate nm Changed: 14/03/2025 10:20:01 AM, Old:  602.007, New:  600.000
UVVIS Interval EV Changed: 14/03/2025 10:20:01 AM, Old:0.00015, New:0.00015
NIR Interval EV Changed: 14/03/2025 10:20:01 AM, Old:0.00015, New:0.00015
Common Interval EV Changed: 14/03/2025 10:20:01 AM, Old:0.00015, New:0.00015
Y mode Changed: 14/03/2025 10:20:01 AM, Old:Abs, New:%T
Y min Changed: 14/03/2025 10:20:01 AM, Old:     0.00, New:    -5.00
Y max Changed: 14/03/2025 10:20:01 AM, Old:     1.00, New:   105.00
Detector changeover Changed: 14/03/2025 10:20:01 AM, Old:   800.00, New:   700.00
Grating changeover Changed: 14/03/2025 10:20:01 AM, Old:   800.00, New:   700.00
Baseline Correction Changed: 14/03/2025 10:20:01 AM, Old:0, New:2
Sipper Type Changed: 14/03/2025 10:20:01 AM, Old:Internal RSA, New:External sipper
End Method Modifications
<Current Wavelength> , 200.000
<SBW (nm)> , 2.00
<Energy> , 39.81
<Slit Height> , Full

sample1,
sample1
Collection Time: 14/03/2025 10:42:49 AM
Operator Name  :
Scan Version 6.0.0.1551
Parameter List :
Instrument  Cary 5000
Instrument Version  2.23
Method Log     :
Method Name    :
Date/Time stamp: 14/03/2025 10:17:44 AM
Method Modifications:
X Start nm Changed: 14/03/2025 10:20:01 AM, Old:800.000, New:2600.000
UVVIS Scan Rate nm Changed: 14/03/2025 10:20:01 AM, Old:  602.007, New:  600.000
NIR Scan Rate nm Changed: 14/03/2025 10:20:01 AM, Old:  602.007, New:  600.000
UVVIS Interval EV Changed: 14/03/2025 10:20:01 AM, Old:0.00015, New:0.00015
NIR Interval EV Changed: 14/03/2025 10:20:01 AM, Old:0.00015, New:0.00015
Common Interval EV Changed: 14/03/2025 10:20:01 AM, Old:0.00015, New:0.00015
Y mode Changed: 14/03/2025 10:20:01 AM, Old:Abs, New:%T
Y min Changed: 14/03/2025 10:20:01 AM, Old:     0.00, New:    -5.00
Y max Changed: 14/03/2025 10:20:01 AM, Old:     1.00, New:   105.00
Detector changeover Changed: 14/03/2025 10:20:01 AM, Old:   800.00, New:   700.00
Grating changeover Changed: 14/03/2025 10:20:01 AM, Old:   800.00, New:   700.00
Baseline Correction Changed: 14/03/2025 10:20:01 AM, Old:0, New:2
Sipper Type Changed: 14/03/2025 10:20:01 AM, Old:Internal RSA, New:External sipper
End Method Modifications
<Current Wavelength> , 199.000
<SBW (nm)> , 2.00
<Energy> , 39.81
<Slit Height> , Full

Plexyglass,
Plexyglass
Collection Time: 14/03/2025 10:48:39 AM
Operator Name  :
Scan Version 6.0.0.1551
Parameter List :
Instrument  Cary 5000
Instrument Version  2.23
Method Log     :
Method Name    :
Date/Time stamp: 14/03/2025 10:17:44 AM
Method Modifications:
X Start nm Changed: 14/03/2025 10:20:01 AM, Old:800.000, New:2600.000
UVVIS Scan Rate nm Changed: 14/03/2025 10:20:01 AM, Old:  602.007, New:  600.000
NIR Scan Rate nm Changed: 14/03/2025 10:20:01 AM, Old:  602.007, New:  600.000
UVVIS Interval EV Changed: 14/03/2025 10:20:01 AM, Old:0.00015, New:0.00015
NIR Interval EV Changed: 14/03/2025 10:20:01 AM, Old:0.00015, New:0.00015
Common Interval EV Changed: 14/03/2025 10:20:01 AM, Old:0.00015, New:0.00015
Y mode Changed: 14/03/2025 10:20:01 AM, Old:Abs, New:%T
Y min Changed: 14/03/2025 10:20:01 AM, Old:     0.00, New:    -5.00
Y max Changed: 14/03/2025 10:20:01 AM, Old:     1.00, New:   105.00
Detector changeover Changed: 14/03/2025 10:20:01 AM, Old:   800.00, New:   700.00
Grating changeover Changed: 14/03/2025 10:20:01 AM, Old:   800.00, New:   700.00
Baseline Correction Changed: 14/03/2025 10:20:01 AM, Old:0, New:2
Sipper Type Changed: 14/03/2025 10:20:01 AM, Old:Internal RSA, New:External sipper
End Method Modifications
<Current Wavelength> , 200.000
<SBW (nm)> , 2.00
<Energy> , 39.81
<Slit Height> , Full

Petri,
Petri
Collection Time: 14/03/2025 10:55:34 AM
Operator Name  :
Scan Version 6.0.0.1551
Parameter List :
Instrument  Cary 5000
Instrument Version  2.23
Method Log     :
Method Name    :
Date/Time stamp: 14/03/2025 10:17:44 AM
Method Modifications:
X Start nm Changed: 14/03/2025 10:20:01 AM, Old:800.000, New:2600.000
UVVIS Scan Rate nm Changed: 14/03/2025 10:20:01 AM, Old:  602.007, New:  600.000
NIR Scan Rate nm Changed: 14/03/2025 10:20:01 AM, Old:  602.007, New:  600.000
UVVIS Interval EV Changed: 14/03/2025 10:20:01 AM, Old:0.00015, New:0.00015
NIR Interval EV Changed: 14/03/2025 10:20:01 AM, Old:0.00015, New:0.00015
Common Interval EV Changed: 14/03/2025 10:20:01 AM, Old:0.00015, New:0.00015
Y mode Changed: 14/03/2025 10:20:01 AM, Old:Abs, New:%T
Y min Changed: 14/03/2025 10:20:01 AM, Old:     0.00, New:    -5.00
Y max Changed: 14/03/2025 10:20:01 AM, Old:     1.00, New:   105.00
Detector changeover Changed: 14/03/2025 10:20:01 AM, Old:   800.00, New:   700.00
Grating changeover Changed: 14/03/2025 10:20:01 AM, Old:   800.00, New:   700.00
Baseline Correction Changed: 14/03/2025 10:20:01 AM, Old:0, New:2
Sipper Type Changed: 14/03/2025 10:20:01 AM, Old:Internal RSA, New:External sipper
End Method Modifications
<Current Wavelength> , 200.000
<SBW (nm)> , 2.00
<Energy> , 39.81
<Slit Height> , Full

rouge,
rouge
Collection Time: 14/03/2025 11:01:13 AM
Operator Name  :
Scan Version 6.0.0.1551
Parameter List :
Instrument  Cary 5000
Instrument Version  2.23
Method Log     :
Method Name    :
Date/Time stamp: 14/03/2025 10:17:44 AM
Method Modifications:
X Start nm Changed: 14/03/2025 10:20:01 AM, Old:800.000, New:2600.000
UVVIS Scan Rate nm Changed: 14/03/2025 10:20:01 AM, Old:  602.007, New:  600.000
NIR Scan Rate nm Changed: 14/03/2025 10:20:01 AM, Old:  602.007, New:  600.000
UVVIS Interval EV Changed: 14/03/2025 10:20:01 AM, Old:0.00015, New:0.00015
NIR Interval EV Changed: 14/03/2025 10:20:01 AM, Old:0.00015, New:0.00015
Common Interval EV Changed: 14/03/2025 10:20:01 AM, Old:0.00015, New:0.00015
Y mode Changed: 14/03/2025 10:20:01 AM, Old:Abs, New:%T
Y min Changed: 14/03/2025 10:20:01 AM, Old:     0.00, New:    -5.00
Y max Changed: 14/03/2025 10:20:01 AM, Old:     1.00, New:   105.00
Detector changeover Changed: 14/03/2025 10:20:01 AM, Old:   800.00, New:   700.00
Grating changeover Changed: 14/03/2025 10:20:01 AM, Old:   800.00, New:   700.00
Baseline Correction Changed: 14/03/2025 10:20:01 AM, Old:0, New:2
Sipper Type Changed: 14/03/2025 10:20:01 AM, Old:Internal RSA, New:External sipper
End Method Modifications
<Current Wavelength> , 200.000
<SBW (nm)> , 2.00
<Energy> , 39.81
<Slit Height> , Full

jaune,
jaune
Collection Time: 14/03/2025 11:06:57 AM
Operator Name  :
Scan Version 6.0.0.1551
Parameter List :
Instrument  Cary 5000
Instrument Version  2.23
Method Log     :
Method Name    :
Date/Time stamp: 14/03/2025 10:17:44 AM
Method Modifications:
X Start nm Changed: 14/03/2025 10:20:01 AM, Old:800.000, New:2600.000
UVVIS Scan Rate nm Changed: 14/03/2025 10:20:01 AM, Old:  602.007, New:  600.000
NIR Scan Rate nm Changed: 14/03/2025 10:20:01 AM, Old:  602.007, New:  600.000
UVVIS Interval EV Changed: 14/03/2025 10:20:01 AM, Old:0.00015, New:0.00015
NIR Interval EV Changed: 14/03/2025 10:20:01 AM, Old:0.00015, New:0.00015
Common Interval EV Changed: 14/03/2025 10:20:01 AM, Old:0.00015, New:0.00015
Y mode Changed: 14/03/2025 10:20:01 AM, Old:Abs, New:%T
Y min Changed: 14/03/2025 10:20:01 AM, Old:     0.00, New:    -5.00
Y max Changed: 14/03/2025 10:20:01 AM, Old:     1.00, New:   105.00
Detector changeover Changed: 14/03/2025 10:20:01 AM, Old:   800.00, New:   700.00
Grating changeover Changed: 14/03/2025 10:20:01 AM, Old:   800.00, New:   700.00
Baseline Correction Changed: 14/03/2025 10:20:01 AM, Old:0, New:2
Sipper Type Changed: 14/03/2025 10:20:01 AM, Old:Internal RSA, New:External sipper
End Method Modifications
<Current Wavelength> , 200.000
<SBW (nm)> , 2.00
<Energy> , 39.81
<Slit Height> , Full

bleu,
bleu
Collection Time: 14/03/2025 11:12:41 AM
Operator Name  :
Scan Version 6.0.0.1551
Parameter List :
Instrument  Cary 5000
Instrument Version  2.23
Method Log     :
Method Name    :
Date/Time stamp: 14/03/2025 10:17:44 AM
Method Modifications:
X Start nm Changed: 14/03/2025 10:20:01 AM, Old:800.000, New:2600.000
UVVIS Scan Rate nm Changed: 14/03/2025 10:20:01 AM, Old:  602.007, New:  600.000
NIR Scan Rate nm Changed: 14/03/2025 10:20:01 AM, Old:  602.007, New:  600.000
UVVIS Interval EV Changed: 14/03/2025 10:20:01 AM, Old:0.00015, New:0.00015
NIR Interval EV Changed: 14/03/2025 10:20:01 AM, Old:0.00015, New:0.00015
Common Interval EV Changed: 14/03/2025 10:20:01 AM, Old:0.00015, New:0.00015
Y mode Changed: 14/03/2025 10:20:01 AM, Old:Abs, New:%T
Y min Changed: 14/03/2025 10:20:01 AM, Old:     0.00, New:    -5.00
Y max Changed: 14/03/2025 10:20:01 AM, Old:     1.00, New:   105.00
Detector changeover Changed: 14/03/2025 10:20:01 AM, Old:   800.00, New:   700.00
Grating changeover Changed: 14/03/2025 10:20:01 AM, Old:   800.00, New:   700.00
Baseline Correction Changed: 14/03/2025 10:20:01 AM, Old:0, New:2
Sipper Type Changed: 14/03/2025 10:20:01 AM, Old:Internal RSA, New:External sipper
End Method Modifications
<Current Wavelength> , 200.000
<SBW (nm)> , 2.00
<Energy> , 39.81
<Slit Height> , Full

lamelle_verre,
lamelle_verre
Collection Time: 14/03/2025 11:18:37 AM
Operator Name  :
Scan Version 6.0.0.1551
Parameter List :
Instrument  Cary 5000
Instrument Version  2.23
Method Log     :
Method Name    :
Date/Time stamp: 14/03/2025 10:17:44 AM
Method Modifications:
X Start nm Changed: 14/03/2025 10:20:01 AM, Old:800.000, New:2600.000
UVVIS Scan Rate nm Changed: 14/03/2025 10:20:01 AM, Old:  602.007, New:  600.000
NIR Scan Rate nm Changed: 14/03/2025 10:20:01 AM, Old:  602.007, New:  600.000
UVVIS Interval EV Changed: 14/03/2025 10:20:01 AM, Old:0.00015, New:0.00015
NIR Interval EV Changed: 14/03/2025 10:20:01 AM, Old:0.00015, New:0.00015
Common Interval EV Changed: 14/03/2025 10:20:01 AM, Old:0.00015, New:0.00015
Y mode Changed: 14/03/2025 10:20:01 AM, Old:Abs, New:%T
Y min Changed: 14/03/2025 10:20:01 AM, Old:     0.00, New:    -5.00
Y max Changed: 14/03/2025 10:20:01 AM, Old:     1.00, New:   105.00
Detector changeover Changed: 14/03/2025 10:20:01 AM, Old:   800.00, New:   700.00
Grating changeover Changed: 14/03/2025 10:20:01 AM, Old:   800.00, New:   700.00
Baseline Correction Changed: 14/03/2025 10:20:01 AM, Old:0, New:2
Sipper Type Changed: 14/03/2025 10:20:01 AM, Old:Internal RSA, New:External sipper
End Method Modifications
<Current Wavelength> , 200.000
<SBW (nm)> , 2.00
<Energy> , 39.81
<Slit Height> , Full